Warning message:
Check duplicates: the dataset which consists of all records selected for any of the events defined by `events` contains duplicate
records with respect to `STUDYID`, `USUBJID`, and `LSTAVLDT`
ℹ Run `admiral::get_duplicates_dataset()` to access the duplicate records 
[1] "Snapshot of Derived Variables for first 10 subjects:"
# A tibble: 306 × 32
   STUDYID   USUBJID SUBJID RFSTDTC RFENDTC RFXSTDTC RFXENDTC RFICDTC RFPENDTC DTHDTC DTHFL SITEID BRTHDTC   AGE AGEU  SEX   RACE  ETHNIC
   <chr>     <chr>   <chr>  <chr>   <chr>   <chr>    <chr>    <chr>   <chr>    <chr>  <chr> <chr>  <chr>   <dbl> <chr> <chr> <chr> <chr> 
 1 CDISCPIL… 01-701… 1015   2014-0… 2014-0… 2014-01… 2014-07… <NA>    2014-07… <NA>   <NA>  701    1950-1…    63 YEARS F     WHITE HISPA…
 2 CDISCPIL… 01-701… 1023   2012-0… 2012-0… 2012-08… 2012-09… <NA>    2013-02… <NA>   <NA>  701    1948-0…    64 YEARS M     WHITE HISPA…
 3 CDISCPIL… 01-701… 1028   2013-0… 2014-0… 2013-07… 2014-01… <NA>    2014-01… <NA>   <NA>  701    1942-0…    71 YEARS M     WHITE NOT H…
 4 CDISCPIL… 01-701… 1033   2014-0… 2014-0… 2014-03… 2014-03… <NA>    2014-09… <NA>   <NA>  701    1940-0…    74 YEARS M     WHITE NOT H…
 5 CDISCPIL… 01-701… 1034   2014-0… 2014-1… 2014-07… 2014-12… <NA>    2014-12… <NA>   <NA>  701    1937-0…    77 YEARS F     WHITE NOT H…
 6 CDISCPIL… 01-701… 1047   2013-0… 2013-0… 2013-02… 2013-03… <NA>    2013-07… <NA>   <NA>  701    1928-0…    85 YEARS F     WHITE NOT H…
 7 CDISCPIL… 01-701… 1057   <NA>    <NA>    <NA>     <NA>     <NA>    2013-12… <NA>   <NA>  701    1954-1…    59 YEARS F     WHITE HISPA…
 8 CDISCPIL… 01-701… 1097   2014-0… 2014-0… 2014-01… 2014-07… <NA>    2014-07… <NA>   <NA>  701    1945-1…    68 YEARS M     WHITE NOT H…
 9 CDISCPIL… 01-701… 1111   2012-0… 2012-0… 2012-09… 2012-09… <NA>    2013-02… <NA>   <NA>  701    1931-0…    81 YEARS F     WHITE NOT H…
10 CDISCPIL… 01-701… 1115   2012-1… 2013-0… 2012-11… 2013-01… <NA>    2013-05… <NA>   <NA>  701    1928-1…    84 YEARS M     WHITE NOT H…
# ℹ 296 more rows
# ℹ 14 more variables: ARMCD <chr>, ARM <chr>, ACTARMCD <chr>, ACTARM <chr>, COUNTRY <chr>, DMDTC <chr>, DMDY <dbl>, AGEGR9 <chr>,
#   AGEGR9N <dbl>, TRTSDTM <dttm>, TRTSTMF <chr>, TRTEDTM <dttm>, ITTFL <chr>, LSTAVLDT <date>
# ℹ Use `print(n = ...)` to see more rows
[1] "SUCCESS: The program ran without errors and the ADSL dataset has been generated."
